Folder: Simulacion-en-Matlab-de-EDFA-y-DRFA-con-MDM/Raman MMF/RamanGains

Note: README.md
# Simulación de amplificadores ópticos EDFA y Raman Distribuido con multiplexación por division de modos (MDM)

Trabajo de titulación completo en el PDF adjunto.

Visualización 3D de modos espaciales

![Modos LP](MMF.png)

File: RamanGain20e-12.dat
// Raman gain spectrum for silica SMF fibers
// C.M.McIntosh, D.N.Christodoulidis, J.Toulouse, et. al., OAA 2000, paper OMB3-1, pp.10-12
// R.H.Stolen, C.Lee, R.K.Jain, JOSA B1, pp. 652-657, 1984.
// Gain data are normalized to the wavelength 1500nm or frequency 1.99862e+14 Hz.
// Effective core area used in calculations of the gain [1/m/W] from the gain
// coefficient [m/W] is Aeff = 20e-12
# df	RamanGain
# [ Hz ] [ 1/m/W ]
# PumpFrequency [ Hz ] 199.86e12
0.00000E+00	0
1.50000E+11	3.03384E-05
3.00000E+11	6.06766E-05
4.50000E+11	0.00010286
6.00000E+11	0.000153018
7.50000E+11	0.000230044
9.00000E+11	0.000336228
1.05000E+12	0.000461092
1.20000E+12	0.000559104
1.35000E+12	0.000676548
1.50000E+12	0.000801032
1.65000E+12	0.000885296
1.80000E+12	0.000970248
1.95000E+12	0.001059696
2.10000E+12	0.001116232
2.25000E+12	0.0011754
2.40000E+12	0.001234456
2.55000E+12	0.001290368
2.70000E+12	0.001347648
2.85000E+12	0.001413248
3.00000E+12	0.001463984
3.15000E+12	0.0015072
3.30000E+12	0.001545824
3.45000E+12	0.001590376
3.60000E+12	0.001619232
3.75000E+12	0.001645096
3.90000E+12	0.00166568
4.05000E+12	0.001687112
4.20000E+12	0.00171536
4.35000E+12	0.0017422
4.50000E+12	0.001766704
4.65000E+12	0.001797088
4.80000E+12	0.001822744
4.95000E+12	0.001843744
5.10000E+12	0.001886216
5.25000E+12	0.001941272
5.40000E+12	0.002005
5.55000E+12	0.00205776
5.70000E+12	0.0021092
5.85000E+12	0.00216068
6.00000E+12	0.0022206
6.15000E+12	0.00227166
6.30000E+12	0.00233226
6.45000E+12	0.0024048
6.60000E+12	0.002469
6.75000E+12	0.00253298
6.90000E+12	0.002617
7.05000E+12	0.00272078
7.20000E+12	0.00281258
7.35000E+12	0.0029027
7.50000E+12	0.00300702
7.65000E+12	0.00309196
7.80000E+12	0.00318564
7.95000E+12	0.00327146
8.10000E+12	0.00334496
8.25000E+12	0.00346516
8.40000E+12	0.003583
8.55000E+12	0.00368788
8.70000E+12	0.00377928
8.85000E+12	0.0038945
9.00000E+12	0.00399338
9.15000E+12	0.00411622
9.30000E+12	0.00422344
9.45000E+12	0.00431362
9.60000E+12	0.00441024
9.75000E+12	0.00451154
9.90000E+12	0.00462388
1.00500E+13	0.0047443
1.02000E+13	0.00486714
1.03500E+13	0.00497594
1.05000E+13	0.00506644
1.06500E+13	0.0051592
1.08000E+13	0.0052347
1.09500E+13	0.00532304
1.11000E+13	0.0054199
1.12500E+13	0.00552246
1.14000E+13	0.00559682
1.15500E+13	0.0057118
1.17000E+13	0.0057861
1.18500E+13	0.00586348
1.20000E+13	0.0059484
1.21500E+13	0.00603308
1.23000E+13	0.00610532
1.24500E+13	0.00617348
1.26000E+13	0.00624146
1.27500E+13	0.00628746
1.29000E+13	0.00632992
1.30500E+13	0.00635378
1.32000E+13	0.00635704
1.33500E+13	0.00631458
1.35000E+13	0.00621908
1.36500E+13	0.00616328
1.38000E+13	0.00609648
1.39500E+13	0.0060137
1.41000E+13	0.00591422
1.42500E+13	0.00587242
1.44000E+13	0.00589756
1.45500E+13	0.00628018
1.47000E+13	0.00571182
1.48500E+13	0.0050992
1.50000E+13	0.00423762
1.51500E+13	0.0034004
1.53000E+13	0.00280444
1.54500E+13	0.00249278
1.56000E+13	0.00229518
1.57500E+13	0.00213484
1.59000E+13	0.00199324
1.60500E+13	0.001886784
1.62000E+13	0.001784704
1.63500E+13	0.001681304
1.65000E+13	0.001595728
1.66500E+13	0.001535056
1.68000E+13	0.001481544
1.69500E+13	0.001439064
1.71000E+13	0.001406008
1.72500E+13	0.001389024
1.74000E+13	0.001431848
1.75500E+13	0.00147964
1.77000E+13	0.001555256
1.78500E+13	0.001697904
1.80000E+13	0.00197832
1.81500E+13	0.00209706
1.83000E+13	0.0020061
1.84500E+13	0.001846792
1.86000E+13	0.0016514
1.87500E+13	0.00137028
1.89000E+13	0.001183104
1.90500E+13	0.001020376
1.92000E+13	0.000923904
1.93500E+13	0.00083128
1.95000E+13	0.000746336
1.96500E+13	0.000661368
1.98000E+13	0.000616486
1.99500E+13	0.00058628
2.01000E+13	0.000557792
2.02500E+13	0.000540804
2.04000E+13	0.000523818
2.05500E+13	0.00050939
2.07000E+13	0.000497256
2.08500E+13	0.000488556
2.10000E+13	0.000483244
2.11500E+13	0.000478556
2.13000E+13	0.000476498
2.14500E+13	0.00047444
2.16000E+13	0.00047356
2.17500E+13	0.00047543
2.19000E+13	0.0004773
2.20500E+13	0.000480628
2.22000E+13	0.000494784
2.23500E+13	0.00050894
2.25000E+13	0.000523098
2.26500E+13	0.000537256
2.28000E+13	0.00058314
2.29500E+13	0.000637902
2.31000E+13	0.000725794
2.32500E+13	0.000854656
2.34000E+13	0.000975552
2.35500E+13	0.001054056
2.37000E+13	0.001089448
2.38500E+13	0.001115336
2.40000E+13	0.001133544
2.41500E+13	0.001128056
2.43000E+13	0.001101512
2.44500E+13	0.00107356
2.46000E+13	0.001040528
2.47500E+13	0.001007488
2.49000E+13	0.000963448
2.50500E+13	0.000911536
2.52000E+13	0.00085916
2.53500E+13	0.000816688
2.55000E+13	0.00076834
2.56500E+13	0.000700388
2.58000E+13	0.000612902
2.59500E+13	0.000559476
2.61000E+13	0.0004996
2.62500E+13	0.000439032
2.64000E+13	0.00039777
2.65500E+13	0.000356848
2.67000E+13	0.00032866
2.68500E+13	0.000304506
2.70000E+13	0.000280352
2.71500E+13	0.000260896
2.73000E+13	0.000245868
2.74500E+13	0.00023738
2.76000E+13	0.00022889
2.77500E+13	0.000220402
2.79000E+13	0.00021341
2.80500E+13	0.000206492
2.82000E+13	0.000199655
2.83500E+13	0.000194036
2.85000E+13	0.000188416
2.86500E+13	0.000184855
2.88000E+13	0.000181988
2.89500E+13	0.000180698
2.91000E+13	0.000182976
2.92500E+13	0.00018779
2.94000E+13	0.000191525
2.95500E+13	0.000194332
2.97000E+13	0.000197715
2.98500E+13	0.000203024
3.00000E+13	0.000208332
3.01500E+13	0.000221566
3.03000E+13	0.000235512
3.04500E+13	0.000246702
3.06000E+13	0.000259198
3.07500E+13	0.000273956
3.09000E+13	0.000288458
3.10500E+13	0.000302612
3.12000E+13	0.000321644
3.13500E+13	0.000342884
3.15000E+13	0.000370876
3.16500E+13	0.00039857
3.18000E+13	0.00042405
3.19500E+13	0.000434518
3.21000E+13	0.000440588
3.22500E+13	0.000438124
3.24000E+13	0.000432816
3.25500E+13	0.000423642
3.27000E+13	0.000409482
3.28500E+13	0.000387376
3.30000E+13	0.000366246
3.31500E+13	0.000357748
3.33000E+13	0.000338928
3.34500E+13	0.000317352
3.36000E+13	0.000291512
3.37500E+13	0.000266004
3.39000E+13	0.000246596
3.40500E+13	0.000229128
3.42000E+13	0.000215852
3.43500E+13	0.00020691
3.45000E+13	0.000202918
3.46500E+13	0.000199442
3.48000E+13	0.000197366
3.49500E+13	0.000197
1.00000E+14	0