Folder: Simulacion-en-Matlab-de-EDFA-y-DRFA-con-MDM/Raman MMF/Respaldo_NO_USADO

Note: Raman MMF/Respaldo_NO_USADO/RamanResponse.txt
0 	0
0.2 	0.1
0.4     0.1
0.6	0.2
0.8 	0.3
1.0 	0.3
1.2 	0.4
1.4 	0.5     
1.7 	0.6 
2.0 	0.6 
2.3 	0.7 
2.6 	0.8 
2.9 	0.8 
3.1 	0.8 
3.4 	0.8 
3.7 	0.8 
4.0 	0.8 
4.3 	0.8 
4.6 	0.8 
4.9 	0.8 
5.1 	0.8 
5.4 	0.9 
5.7 	0.9 
6.0 	0.9 
6.2 	0.9 
6.5 	1.0 
6.8 	1.0 
7.1 	1.1 
7.3 	1.1 
7.6 	1.2 
7.9 	1.2 
8.2 	1.3 
8.4 	1.4 
8.7 	1.4 
9.0 	1.5 
9.2 	1.6 
9.5 	1.6 
9.8 	1.7 
10.0 	1.8 
10.3 	1.9 
10.6 	1.9 
10.8 	2.0 
11.1 	2.1 
11.4 	2.2 
11.6 	2.2 
11.9 	2.3 
12.1 	2.4 
12.4 	2.4 
12.7 	2.5 
12.9 	2.6 
13.2 	2.6 
13.4 	2.5 
13.7 	2.5 
14.0 	2.4 
14.2 	2.4 
14.5 	2.5 
14.7 	2.5 
15.0 	2.3 
15.2 	1.8 
15.5 	1.4 
15.7 	1.0 
16.0 	0.8 
16.2 	0.7 
16.5 	0.7 
16.7 	0.6 
17.0 	0.5 
17.2 	0.5 
17.5 	0.5 
17.7 	0.6 
18.0 	0.7 
18.2 	0.7 
18.5 	0.6 
18.7 	0.5 
18.9 	0.4 
19.2 	0.3 
19.4 	0.3 
19.7 	0.3 
19.9 	0.2 
20.1 	0.2 
20.4 	0.2 
20.6 	0.2 
20.9 	0.2 
21.1 	0.2 
21.3 	0.2 
21.6 	0.2 
21.8 	0.2 
22.0 	0.2 
22.3 	0.2 
22.5 	0.2 
22.7 	0.2 
23.0 	0.3 
23.2 	0.4 
23.4 	0.5 
23.7 	0.5 
23.9 	0.5 
24.1 	0.5 
24.4 	0.5 
24.6 	0.5 
24.8 	0.5 
25.1 	0.4 
25.3 	0.4 
25.5 	0.3 
25.7 	0.2 
25.9 	0.2 
26.2 	0.2 
26.4 	0.1 
26.6 	0.1 
26.8 	0.1

Note: README.md
# Simulación de amplificadores ópticos EDFA y Raman Distribuido con multiplexación por division de modos (MDM)

Trabajo de titulación completo en el PDF adjunto.

Visualización 3D de modos espaciales

![Modos LP](MMF.png)

File: RGEfficiency_FusedSilica_NLO_3rdEd_Agrawal_Fig8-1_p300_Hz.dat
0	0
6.26866E+11	5.24028E-05
1.25373E+12	0.000108242
1.8806E+12	0.000156645
2.50746E+12	0.00022409
3.13433E+12	0.00027413
3.7612E+12	0.000306764
4.38806E+12	0.000341575
5.01493E+12	0.000358979
5.64179E+12	0.000391614
6.26866E+12	0.000430775
6.89553E+12	0.000456883
7.52239E+12	0.000506922
8.14926E+12	0.000571213
8.77612E+12	0.000653843
9.40299E+12	0.000779639
1.00299E+13	0.000887963
1.06567E+13	0.000974336
1.12836E+13	0.001073761
1.19105E+13	0.001113924
1.25373E+13	0.00118263
1.31642E+13	0.0012375
1.37911E+13	0.001217853
1.44179E+13	0.001153085
1.50448E+13	0.001210893
1.56717E+13	0.001159373
1.62985E+13	0.000655301
1.69254E+13	0.000373208
1.75522E+13	0.000222024
1.81791E+13	0.000227549
1.8806E+13	0.000252939
1.94328E+13	0.000280656
2.00597E+13	0.000176226
2.06866E+13	0.000115309
2.13134E+13	9.35522E-05
2.19403E+13	9.13766E-05
2.25672E+13	9.35522E-05
2.3194E+13	9.57278E-05
2.38209E+13	0.000121835
2.44478E+13	0.000182753
2.50746E+13	0.000211036
2.57015E+13	0.000197983
2.63284E+13	0.000150119
2.69552E+13	9.57278E-05
2.75821E+13	6.30933E-05
2.8209E+13	5.43908E-05
2.88358E+13	4.78639E-05
2.94627E+13	3.91614E-05
3.00896E+13	3.91614E-05
3.07164E+13	3.69858E-05
3.13433E+13	4.35126E-05
3.19702E+13	5.65665E-05
3.2597E+13	7.39716E-05
3.32239E+13	8.04984E-05
3.38508E+13	6.74446E-05
3.44776E+13	4.78639E-05
3.51045E+13	3.48101E-05
3.57314E+13	3.26345E-05
3.63582E+13	3.48101E-05
3.69851E+13	4.56883E-05
3.7612E+13	4.56883E-05
3.82388E+13	3.26345E-05
3.88657E+13	2.61075E-05
3.94926E+13	1.52294E-05
4.01194E+13	1.08782E-05
4.07463E+13	1.30538E-05
4.13732E+13	2.17564E-06
4.2E+13	0

File: RGNorm_FusedSilica_NLO_3rdEd_Agrawal_Fig8-1_p300_Hz.dat
0	0
6.26866e+011	0.0423457
1.25373e+012	0.0874684
1.8806e+012	0.126582
2.50746e+012	0.181083
3.13433e+012	0.221519
3.7612e+012	0.24789
4.38806e+012	0.27602
5.01493e+012	0.290084
5.64179e+012	0.316456
6.26866e+012	0.348101
6.89553e+012	0.369198
7.52239e+012	0.409634
8.14926e+012	0.461586
8.77612e+012	0.528358
9.40299e+012	0.630011
1.00299e+013	0.717546
1.06567e+013	0.787342
1.12836e+013	0.867686
1.19105e+013	0.900141
1.25373e+013	0.955661
1.31642e+013	1
1.37911e+013	0.984124
1.44179e+013	0.931786
1.50448e+013	0.978499
1.56717e+013	0.936867
1.62985e+013	0.529536
1.69254e+013	0.301582
1.75522e+013	0.179413
1.81791e+013	0.183878
1.8806e+013	0.204395
1.94328e+013	0.226793
2.00597e+013	0.142405
2.06866e+013	0.0931786
2.13134e+013	0.0755977
2.19403e+013	0.0738397
2.25672e+013	0.0755977
2.3194e+013	0.0773558
2.38209e+013	0.0984529
2.44478e+013	0.147679
2.50746e+013	0.170534
2.57015e+013	0.159986
2.63284e+013	0.121308
2.69552e+013	0.0773558
2.75821e+013	0.0509845
2.8209e+013	0.0439522
2.88358e+013	0.0386779
2.94627e+013	0.0316456
3.00896e+013	0.0316456
3.07164e+013	0.0298875
3.13433e+013	0.0351617
3.19702e+013	0.0457103
3.2597e+013	0.059775
3.32239e+013	0.0650492
3.38508e+013	0.0545007
3.44776e+013	0.0386779
3.51045e+013	0.0281294
3.57314e+013	0.0263713
3.63582e+013	0.0281294
3.69851e+013	0.0369198
3.7612e+013	0.0369198
3.82388e+013	0.0263713
3.88657e+013	0.021097
3.94926e+013	0.0123066
4.01194e+013	0.00879044
4.07463e+013	0.0105485
4.13732e+013	0.00175809
4.2e+013	0